[0;1;34m+--------------------------------------------------------------------------------------------------+
|[0;1;33m                                       Dielectric Function                                        [0;1;34m|
+--------------------------------------------------------------------------------------------------+[0;0m
[1;31m ... [0;0mbands = 8
[1;31m ... [0;0minterband pairs = 56
[1;31m ... [0;0mtetrahedra = 148
[1;31m ... [0;0mlowest energy = -9.4986
[1;31m ... [0;0mhighest energy = 4.936
[1;31m ... [0;0mhighest - lowest = 14.435
[1;31m ... [0;0mprobing energies = 1444
[1;31m ... [0;0mlower energy range = 0
[1;31m ... [0;0mupper energy range = 14.43
[1;31m ... [0;0menergy increment dE = 1E-02
       0.07       0.14       0.21       0.28       0.35       0.42       0.48       0.55       0.62       0.69       0.76       0.83       0.90       0.97       1.04       1.11       1.18       1.25       1.32       1.39       1.45       1.52       1.59       1.66       1.73       1.80       1.87       1.94       2.01       2.08       2.15       2.22       2.29       2.35       2.42       2.49       2.56       2.63       2.70       2.77       2.84       2.91       2.98       3.05       3.12       3.19       3.25       3.32       3.39       3.46       3.53       3.60       3.67       3.74       3.81       3.88       3.95       4.02       4.09       4.16       4.22       4.29       4.36       4.43       4.50       4.57       4.64       4.71       4.78       4.85       4.92       4.99       5.06       5.12       5.19       5.26       5.33       5.40       5.47       5.54       5.61       5.68       5.75       5.82       5.89       5.96       6.02       6.09       6.16       6.23       6.30       6.37       6.44       6.51       6.58       6.65       6.72       6.79       6.86       6.93       6.99       7.06       7.13       7.20       7.27       7.34       7.41       7.48       7.55       7.62       7.69       7.76       7.83       7.89       7.96       8.03       8.10       8.17       8.24       8.31       8.38       8.45       8.52       8.59       8.66       8.73       8.80       8.86       8.93       9.00       9.07       9.14       9.21       9.28       9.35       9.42       9.49       9.56       9.63       9.70       9.76       9.83       9.90       9.97      10.04      10.11      10.18      10.25      10.32      10.39      10.46      10.53      10.60      10.66      10.73      10.80      10.87      10.94      11.01      11.08      11.15      11.22      11.29      11.36      11.43      11.50      11.57      11.63      11.70      11.77      11.84      11.91      11.98      12.05      12.12      12.19      12.26      12.33      12.40      12.47      12.53      12.60      12.67      12.74      12.81      12.88      12.95      13.02      13.09      13.16      13.23      13.30      13.37      13.43      13.50      13.57      13.64      13.71      13.78      13.85      13.92      13.99      14.06      14.13      14.20      14.27      14.34      14.40      14.47      14.54      14.61      14.68      14.75      14.82      14.89      14.96      15.03      15.10      15.17      15.24      15.30      15.37      15.44      15.51      15.58      15.65      15.72      15.79      15.86      15.93      16.00      16.07      16.14      16.20      16.27      16.34      16.41      16.48      16.55      16.62      16.69      16.76      16.83      16.90      16.97      17.04      17.11      17.17      17.24      17.31      17.38      17.45      17.52      17.59      17.66      17.73      17.80      17.87      17.94      18.01      18.07      18.14      18.21      18.28      18.35      18.42      18.49      18.56      18.63      18.70      18.77      18.84      18.91      18.98      19.04      19.11      19.18      19.25      19.32      19.39      19.46      19.53      19.60      19.67      19.74      19.81      19.88      19.94      20.01      20.08      20.15      20.22      20.29      20.36      20.43      20.50      20.57      20.64      20.71      20.78      20.84      20.91      20.98      21.05      21.12      21.19      21.26      21.33      21.40      21.47      21.54      21.61      21.68      21.75      21.81      21.88      21.95      22.02      22.09      22.16      22.23      22.30      22.37      22.44      22.51      22.58      22.65      22.71      22.78      22.85      22.92      22.99      23.06      23.13      23.20      23.27      23.34      23.41      23.48      23.55      23.61      23.68      23.75      23.82      23.89      23.96      24.03      24.10      24.17      24.24      24.31      24.38      24.45      24.52      24.58      24.65      24.72      24.79      24.86      24.93      25.00      25.07      25.14      25.21      25.28      25.35      25.42      25.48      25.55      25.62      25.69      25.76      25.83      25.90      25.97      26.04      26.11      26.18      26.25      26.32      26.39      26.45      26.52      26.59      26.66      26.73      26.80      26.87      26.94      27.01      27.08      27.15      27.22      27.29      27.35      27.42      27.49      27.56      27.63      27.70      27.77      27.84      27.91      27.98      28.05      28.12      28.19      28.25      28.32      28.39      28.46      28.53      28.60      28.67      28.74      28.81      28.88      28.95      29.02      29.09      29.16      29.22      29.29      29.36      29.43      29.50      29.57      29.64      29.71      29.78      29.85      29.92      29.99      30.06      30.12      30.19      30.26      30.33      30.40      30.47      30.54      30.61      30.68      30.75      30.82      30.89      30.96      31.02      31.09      31.16      31.23      31.30      31.37      31.44      31.51      31.58      31.65      31.72      31.79      31.86      31.93      31.99      32.06      32.13      32.20      32.27      32.34      32.41      32.48      32.55      32.62      32.69      32.76      32.83      32.89      32.96      33.03      33.10      33.17      33.24      33.31      33.38      33.45      33.52      33.59      33.66      33.73      33.80      33.86      33.93      34.00      34.07      34.14      34.21      34.28      34.35      34.42      34.49      34.56      34.63      34.70      34.76      34.83      34.90      34.97      35.04      35.11      35.18      35.25      35.32      35.39      35.46      35.53      35.60      35.66      35.73      35.80      35.87      35.94      36.01      36.08      36.15      36.22      36.29      36.36      36.43      36.50      36.57      36.63      36.70      36.77      36.84      36.91      36.98      37.05      37.12      37.19      37.26      37.33      37.40      37.47      37.53      37.60      37.67      37.74      37.81      37.88      37.95      38.02      38.09      38.16      38.23      38.30      38.37      38.43      38.50      38.57      38.64      38.71      38.78      38.85      38.92      38.99      39.06      39.13      39.20      39.27      39.34      39.40      39.47      39.54      39.61      39.68      39.75      39.82      39.89      39.96      40.03      40.10      40.17      40.24      40.30      40.37      40.44      40.51      40.58      40.65      40.72      40.79      40.86      40.93      41.00      41.07      41.14      41.20      41.27      41.34      41.41      41.48      41.55      41.62      41.69      41.76      41.83      41.90      41.97      42.04      42.11      42.17      42.24      42.31      42.38      42.45      42.52      42.59      42.66      42.73      42.80      42.87      42.94      43.01      43.07      43.14      43.21      43.28      43.35      43.42      43.49      43.56      43.63      43.70      43.77      43.84      43.91      43.98      44.04      44.11      44.18      44.25      44.32      44.39      44.46      44.53      44.60      44.67      44.74      44.81      44.88      44.94      45.01      45.08      45.15      45.22      45.29      45.36      45.43      45.50      45.57      45.64      45.71      45.78      45.84      45.91      45.98      46.05      46.12      46.19      46.26      46.33      46.40      46.47      46.54      46.61      46.68      46.75      46.81      46.88      46.95      47.02      47.09      47.16      47.23      47.30      47.37      47.44      47.51      47.58      47.65      47.71      47.78      47.85      47.92      47.99      48.06      48.13      48.20      48.27      48.34      48.41      48.48      48.55      48.61      48.68      48.75      48.82      48.89      48.96      49.03      49.10      49.17      49.24      49.31      49.38      49.45      49.52      49.58      49.65      49.72      49.79      49.86      49.93      50.00      50.07      50.14      50.21      50.28      50.35      50.42      50.48      50.55      50.62      50.69      50.76      50.83      50.90      50.97      51.04      51.11      51.18      51.25      51.32      51.39      51.45      51.52      51.59      51.66      51.73      51.80      51.87      51.94      52.01      52.08      52.15      52.22      52.29      52.35      52.42      52.49      52.56      52.63      52.70      52.77      52.84      52.91      52.98      53.05      53.12      53.19      53.25      53.32      53.39      53.46      53.53      53.60      53.67      53.74      53.81      53.88      53.95      54.02      54.09      54.16      54.22      54.29      54.36      54.43      54.50      54.57      54.64      54.71      54.78      54.85      54.92      54.99      55.06      55.12      55.19      55.26      55.33      55.40      55.47      55.54      55.61      55.68      55.75      55.82      55.89      55.96      56.02      56.09      56.16      56.23      56.30      56.37      56.44      56.51      56.58      56.65      56.72      56.79      56.86      56.93      56.99      57.06      57.13      57.20      57.27      57.34      57.41      57.48      57.55      57.62      57.69      57.76      57.83      57.89      57.96      58.03      58.10      58.17      58.24      58.31      58.38      58.45      58.52      58.59      58.66      58.73      58.80      58.86      58.93      59.00      59.07      59.14      59.21      59.28      59.35      59.42      59.49      59.56      59.63      59.70      59.76      59.83      59.90      59.97      60.04      60.11      60.18      60.25      60.32      60.39      60.46      60.53      60.60      60.66      60.73      60.80      60.87      60.94      61.01      61.08      61.15      61.22      61.29      61.36      61.43      61.50      61.57      61.63      61.70      61.77      61.84      61.91      61.98      62.05      62.12      62.19      62.26      62.33      62.40      62.47      62.53      62.60      62.67      62.74      62.81      62.88      62.95      63.02      63.09      63.16      63.23      63.30      63.37      63.43      63.50      63.57      63.64      63.71      63.78      63.85      63.92      63.99      64.06      64.13      64.20      64.27      64.34      64.40      64.47      64.54      64.61      64.68      64.75      64.82      64.89      64.96      65.03      65.10      65.17      65.24      65.30      65.37      65.44      65.51      65.58      65.65      65.72      65.79      65.86      65.93      66.00      66.07      66.14      66.20      66.27      66.34      66.41      66.48      66.55      66.62      66.69      66.76      66.83      66.90      66.97      67.04      67.11      67.17      67.24      67.31      67.38      67.45      67.52      67.59      67.66      67.73      67.80      67.87      67.94      68.01      68.07      68.14      68.21      68.28      68.35      68.42      68.49      68.56      68.63      68.70      68.77      68.84      68.91      68.98      69.04      69.11      69.18      69.25      69.32      69.39      69.46      69.53      69.60      69.67      69.74      69.81      69.88      69.94      70.01      70.08      70.15      70.22      70.29      70.36      70.43      70.50      70.57      70.64      70.71      70.78      70.84      70.91      70.98      71.05      71.12      71.19      71.26      71.33      71.40      71.47      71.54      71.61      71.68      71.75      71.81      71.88      71.95      72.02      72.09      72.16      72.23      72.30      72.37      72.44      72.51      72.58      72.65      72.71      72.78      72.85      72.92      72.99      73.06      73.13      73.20      73.27      73.34      73.41      73.48      73.55      73.61      73.68      73.75      73.82      73.89      73.96      74.03      74.10      74.17      74.24      74.31      74.38      74.45      74.52      74.58      74.65      74.72      74.79      74.86      74.93      75.00      75.07      75.14      75.21      75.28      75.35      75.42      75.48      75.55      75.62      75.69      75.76      75.83      75.90      75.97      76.04      76.11      76.18      76.25      76.32      76.39      76.45      76.52      76.59      76.66      76.73      76.80      76.87      76.94      77.01      77.08      77.15      77.22      77.29      77.35      77.42      77.49      77.56      77.63      77.70      77.77      77.84      77.91      77.98      78.05      78.12      78.19      78.25      78.32      78.39      78.46      78.53      78.60      78.67      78.74      78.81      78.88      78.95      79.02      79.09      79.16      79.22      79.29      79.36      79.43      79.50      79.57      79.64      79.71      79.78      79.85      79.92      79.99      80.06      80.12      80.19      80.26      80.33      80.40      80.47      80.54      80.61      80.68      80.75      80.82      80.89      80.96      81.02      81.09      81.16      81.23      81.30      81.37      81.44      81.51      81.58      81.65      81.72      81.79      81.86      81.93      81.99      82.06      82.13      82.20      82.27      82.34      82.41      82.48      82.55      82.62      82.69      82.76      82.83      82.89      82.96      83.03      83.10      83.17      83.24      83.31      83.38      83.45      83.52      83.59      83.66      83.73      83.80      83.86      83.93      84.00      84.07      84.14      84.21      84.28      84.35      84.42      84.49      84.56      84.63      84.70      84.76      84.83      84.90      84.97      85.04      85.11      85.18      85.25      85.32      85.39      85.46      85.53      85.60      85.66      85.73      85.80      85.87      85.94      86.01      86.08      86.15      86.22      86.29      86.36      86.43      86.50      86.57      86.63      86.70      86.77      86.84      86.91      86.98      87.05      87.12      87.19      87.26      87.33      87.40      87.47      87.53      87.60      87.67      87.74      87.81      87.88      87.95      88.02      88.09      88.16      88.23      88.30      88.37      88.43      88.50      88.57      88.64      88.71      88.78      88.85      88.92      88.99      89.06      89.13      89.20      89.27      89.34      89.40      89.47      89.54      89.61      89.68      89.75      89.82      89.89      89.96      90.03      90.10      90.17      90.24      90.30      90.37      90.44      90.51      90.58      90.65      90.72      90.79      90.86      90.93      91.00      91.07      91.14      91.20      91.27      91.34      91.41      91.48      91.55      91.62      91.69      91.76      91.83      91.90      91.97      92.04      92.11      92.17      92.24      92.31      92.38      92.45      92.52      92.59      92.66      92.73      92.80      92.87      92.94      93.01      93.07      93.14      93.21      93.28      93.35      93.42      93.49      93.56      93.63      93.70      93.77      93.84      93.91      93.98      94.04      94.11      94.18      94.25      94.32      94.39      94.46      94.53      94.60      94.67      94.74      94.81      94.88      94.94      95.01      95.08      95.15      95.22      95.29      95.36      95.43      95.50      95.57      95.64      95.71      95.78      95.84      95.91      95.98      96.05      96.12      96.19      96.26      96.33      96.40      96.47      96.54      96.61      96.68      96.75      96.81      96.88      96.95      97.02      97.09      97.16      97.23      97.30      97.37      97.44      97.51      97.58      97.65      97.71      97.78      97.85      97.92      97.99      98.06      98.13      98.20      98.27      98.34      98.41      98.48      98.55      98.61      98.68      98.75      98.82      98.89      98.96      99.03      99.10      99.17      99.24      99.31      99.38      99.45      99.52      99.58      99.65      99.72      99.79      99.86      99.93     100.00 [1;31m ... [0;0mjoint density of states
 [1;31m ... [0;0mdegauss = 0.1
       0.07       0.14       0.21       0.28       0.35       0.42       0.48       0.55       0.62       0.69       0.76       0.83       0.90       0.97       1.04       1.11       1.18       1.25       1.32       1.39       1.45       1.52       1.59       1.66       1.73       1.80       1.87       1.94       2.01       2.08       2.15       2.22       2.29       2.35       2.42       2.49       2.56       2.63       2.70       2.77       2.84       2.91       2.98       3.05       3.12       3.19       3.25       3.32       3.39       3.46       3.53       3.60       3.67       3.74       3.81       3.88       3.95       4.02       4.09       4.16       4.22       4.29       4.36       4.43       4.50       4.57       4.64       4.71       4.78       4.85       4.92       4.99       5.06       5.12       5.19       5.26       5.33       5.40       5.47       5.54       5.61       5.68       5.75       5.82       5.89       5.96       6.02       6.09       6.16       6.23       6.30       6.37       6.44       6.51       6.58       6.65       6.72       6.79       6.86       6.93       6.99       7.06       7.13       7.20       7.27       7.34       7.41       7.48       7.55       7.62       7.69       7.76       7.83       7.89       7.96       8.03       8.10       8.17       8.24       8.31       8.38       8.45       8.52       8.59       8.66       8.73       8.80       8.86       8.93       9.00       9.07       9.14       9.21       9.28       9.35       9.42       9.49       9.56       9.63       9.70       9.76       9.83       9.90       9.97      10.04      10.11      10.18      10.25      10.32      10.39      10.46      10.53      10.60      10.66      10.73      10.80      10.87      10.94      11.01      11.08      11.15      11.22      11.29      11.36      11.43      11.50      11.57      11.63      11.70      11.77      11.84      11.91      11.98      12.05      12.12      12.19      12.26      12.33      12.40      12.47      12.53      12.60      12.67      12.74      12.81      12.88      12.95      13.02      13.09      13.16      13.23      13.30      13.37      13.43      13.50      13.57      13.64      13.71      13.78      13.85      13.92      13.99      14.06      14.13      14.20      14.27      14.34      14.40      14.47      14.54      14.61      14.68      14.75      14.82      14.89      14.96      15.03      15.10      15.17      15.24      15.30      15.37      15.44      15.51      15.58      15.65      15.72      15.79      15.86      15.93      16.00      16.07      16.14      16.20      16.27      16.34      16.41      16.48      16.55      16.62      16.69      16.76      16.83      16.90      16.97      17.04      17.11      17.17      17.24      17.31      17.38      17.45      17.52      17.59      17.66      17.73      17.80      17.87      17.94      18.01      18.07      18.14      18.21      18.28      18.35      18.42      18.49      18.56      18.63      18.70      18.77      18.84      18.91      18.98      19.04      19.11      19.18      19.25      19.32      19.39      19.46      19.53      19.60      19.67      19.74      19.81      19.88      19.94      20.01      20.08      20.15      20.22      20.29      20.36      20.43      20.50      20.57      20.64      20.71      20.78      20.84      20.91      20.98      21.05      21.12      21.19      21.26      21.33      21.40      21.47      21.54      21.61      21.68      21.75      21.81      21.88      21.95      22.02      22.09      22.16      22.23      22.30      22.37      22.44      22.51      22.58      22.65      22.71      22.78      22.85      22.92      22.99      23.06      23.13      23.20      23.27      23.34      23.41      23.48      23.55      23.61      23.68      23.75      23.82      23.89      23.96      24.03      24.10      24.17      24.24      24.31      24.38      24.45      24.52      24.58      24.65      24.72      24.79      24.86      24.93      25.00      25.07      25.14      25.21      25.28      25.35      25.42      25.48      25.55      25.62      25.69      25.76      25.83      25.90      25.97      26.04      26.11      26.18      26.25      26.32      26.39      26.45      26.52      26.59      26.66      26.73      26.80      26.87      26.94      27.01      27.08      27.15      27.22      27.29      27.35      27.42      27.49      27.56      27.63      27.70      27.77      27.84      27.91      27.98      28.05      28.12      28.19      28.25      28.32      28.39      28.46      28.53      28.60      28.67      28.74      28.81      28.88      28.95      29.02      29.09      29.16      29.22      29.29      29.36      29.43      29.50      29.57      29.64      29.71      29.78      29.85      29.92      29.99      30.06      30.12      30.19      30.26      30.33      30.40      30.47      30.54      30.61      30.68      30.75      30.82      30.89      30.96      31.02      31.09      31.16      31.23      31.30      31.37      31.44      31.51      31.58      31.65      31.72      31.79      31.86      31.93      31.99      32.06      32.13      32.20      32.27      32.34      32.41      32.48      32.55      32.62      32.69      32.76      32.83      32.89      32.96      33.03      33.10      33.17      33.24      33.31      33.38      33.45      33.52      33.59      33.66      33.73      33.80      33.86      33.93      34.00      34.07      34.14      34.21      34.28      34.35      34.42      34.49      34.56      34.63      34.70      34.76      34.83      34.90      34.97      35.04      35.11      35.18      35.25      35.32      35.39      35.46      35.53      35.60      35.66      35.73      35.80      35.87      35.94      36.01      36.08      36.15      36.22      36.29      36.36      36.43      36.50      36.57      36.63      36.70      36.77      36.84      36.91      36.98      37.05      37.12      37.19      37.26      37.33      37.40      37.47      37.53      37.60      37.67      37.74      37.81      37.88      37.95      38.02      38.09      38.16      38.23      38.30      38.37      38.43      38.50      38.57      38.64      38.71      38.78      38.85      38.92      38.99      39.06      39.13      39.20      39.27      39.34      39.40      39.47      39.54      39.61      39.68      39.75      39.82      39.89      39.96      40.03      40.10      40.17      40.24      40.30      40.37      40.44      40.51      40.58      40.65      40.72      40.79      40.86      40.93      41.00      41.07      41.14      41.20      41.27      41.34      41.41      41.48      41.55      41.62      41.69      41.76      41.83      41.90      41.97      42.04      42.11      42.17      42.24      42.31      42.38      42.45      42.52      42.59      42.66      42.73      42.80      42.87      42.94      43.01      43.07      43.14      43.21      43.28      43.35      43.42      43.49      43.56      43.63      43.70      43.77      43.84      43.91      43.98      44.04      44.11      44.18      44.25      44.32      44.39      44.46      44.53      44.60      44.67      44.74      44.81      44.88      44.94      45.01      45.08      45.15      45.22      45.29      45.36      45.43      45.50      45.57      45.64      45.71      45.78      45.84      45.91      45.98      46.05      46.12      46.19      46.26      46.33      46.40      46.47      46.54      46.61      46.68      46.75      46.81      46.88      46.95      47.02      47.09      47.16      47.23      47.30      47.37      47.44      47.51      47.58      47.65      47.71      47.78      47.85      47.92      47.99      48.06      48.13      48.20      48.27      48.34      48.41      48.48      48.55      48.61      48.68      48.75      48.82      48.89      48.96      49.03      49.10      49.17      49.24      49.31      49.38      49.45      49.52      49.58      49.65      49.72      49.79      49.86      49.93      50.00      50.07      50.14      50.21      50.28      50.35      50.42      50.48      50.55      50.62      50.69      50.76      50.83      50.90      50.97      51.04      51.11      51.18      51.25      51.32      51.39      51.45      51.52      51.59      51.66      51.73      51.80      51.87      51.94      52.01      52.08      52.15      52.22      52.29      52.35      52.42      52.49      52.56      52.63      52.70      52.77      52.84      52.91      52.98      53.05      53.12      53.19      53.25      53.32      53.39      53.46      53.53      53.60      53.67      53.74      53.81      53.88      53.95      54.02      54.09      54.16      54.22      54.29      54.36      54.43      54.50      54.57      54.64      54.71      54.78      54.85      54.92      54.99      55.06      55.12      55.19      55.26      55.33      55.40      55.47      55.54      55.61      55.68      55.75      55.82      55.89      55.96      56.02      56.09      56.16      56.23      56.30      56.37      56.44      56.51      56.58      56.65      56.72      56.79      56.86      56.93      56.99      57.06      57.13      57.20      57.27      57.34      57.41      57.48      57.55      57.62      57.69      57.76      57.83      57.89      57.96      58.03      58.10      58.17      58.24      58.31      58.38      58.45      58.52      58.59      58.66      58.73      58.80      58.86      58.93      59.00      59.07      59.14      59.21      59.28      59.35      59.42      59.49      59.56      59.63      59.70      59.76      59.83      59.90      59.97      60.04      60.11      60.18      60.25      60.32      60.39      60.46      60.53      60.60      60.66      60.73      60.80      60.87      60.94      61.01      61.08      61.15      61.22      61.29      61.36      61.43      61.50      61.57      61.63      61.70      61.77      61.84      61.91      61.98      62.05      62.12      62.19      62.26      62.33      62.40      62.47      62.53      62.60      62.67      62.74      62.81      62.88      62.95      63.02      63.09      63.16      63.23      63.30      63.37      63.43      63.50      63.57      63.64      63.71      63.78      63.85      63.92      63.99      64.06      64.13      64.20      64.27      64.34      64.40      64.47      64.54      64.61      64.68      64.75      64.82      64.89      64.96      65.03      65.10      65.17      65.24      65.30      65.37      65.44      65.51      65.58      65.65      65.72      65.79      65.86      65.93      66.00      66.07      66.14      66.20      66.27      66.34      66.41      66.48      66.55      66.62      66.69      66.76      66.83      66.90      66.97      67.04      67.11      67.17      67.24      67.31      67.38      67.45      67.52      67.59      67.66      67.73      67.80      67.87      67.94      68.01      68.07      68.14      68.21      68.28      68.35      68.42      68.49      68.56      68.63      68.70      68.77      68.84      68.91      68.98      69.04      69.11      69.18      69.25      69.32      69.39      69.46      69.53      69.60      69.67      69.74      69.81      69.88      69.94      70.01      70.08      70.15      70.22      70.29      70.36      70.43      70.50      70.57      70.64      70.71      70.78      70.84      70.91      70.98      71.05      71.12      71.19      71.26      71.33      71.40      71.47      71.54      71.61      71.68      71.75      71.81      71.88      71.95      72.02      72.09      72.16      72.23      72.30      72.37      72.44      72.51      72.58      72.65      72.71      72.78      72.85      72.92      72.99      73.06      73.13      73.20      73.27      73.34      73.41      73.48      73.55      73.61      73.68      73.75      73.82      73.89      73.96      74.03      74.10      74.17      74.24      74.31      74.38      74.45      74.52      74.58      74.65      74.72      74.79      74.86      74.93      75.00      75.07      75.14      75.21      75.28      75.35      75.42      75.48      75.55      75.62      75.69      75.76      75.83      75.90      75.97      76.04      76.11      76.18      76.25      76.32      76.39      76.45      76.52      76.59      76.66      76.73      76.80      76.87      76.94      77.01      77.08      77.15      77.22      77.29      77.35      77.42      77.49      77.56      77.63      77.70      77.77      77.84      77.91      77.98      78.05      78.12      78.19      78.25      78.32      78.39      78.46      78.53      78.60      78.67      78.74      78.81      78.88      78.95      79.02      79.09      79.16      79.22      79.29      79.36      79.43      79.50      79.57      79.64      79.71      79.78      79.85      79.92      79.99      80.06      80.12      80.19      80.26      80.33      80.40      80.47      80.54      80.61      80.68      80.75      80.82      80.89      80.96      81.02      81.09      81.16      81.23      81.30      81.37      81.44      81.51      81.58      81.65      81.72      81.79      81.86      81.93      81.99      82.06      82.13      82.20      82.27      82.34      82.41      82.48      82.55      82.62      82.69      82.76      82.83      82.89      82.96      83.03      83.10      83.17      83.24      83.31      83.38      83.45      83.52      83.59      83.66      83.73      83.80      83.86      83.93      84.00      84.07      84.14      84.21      84.28      84.35      84.42      84.49      84.56      84.63      84.70      84.76      84.83      84.90      84.97      85.04      85.11      85.18      85.25      85.32      85.39      85.46      85.53      85.60      85.66      85.73      85.80      85.87      85.94      86.01      86.08      86.15      86.22      86.29      86.36      86.43      86.50      86.57      86.63      86.70      86.77      86.84      86.91      86.98      87.05      87.12      87.19      87.26      87.33      87.40      87.47      87.53      87.60      87.67      87.74      87.81      87.88      87.95      88.02      88.09      88.16      88.23      88.30      88.37      88.43      88.50      88.57      88.64      88.71      88.78      88.85      88.92      88.99      89.06      89.13      89.20      89.27      89.34      89.40      89.47      89.54      89.61      89.68      89.75      89.82      89.89      89.96      90.03      90.10      90.17      90.24      90.30      90.37      90.44      90.51      90.58      90.65      90.72      90.79      90.86      90.93      91.00      91.07      91.14      91.20      91.27      91.34      91.41      91.48      91.55      91.62      91.69      91.76      91.83      91.90      91.97      92.04      92.11      92.17      92.24      92.31      92.38      92.45      92.52      92.59      92.66      92.73      92.80      92.87      92.94      93.01      93.07      93.14      93.21      93.28      93.35      93.42      93.49      93.56      93.63      93.70      93.77      93.84      93.91      93.98      94.04      94.11      94.18      94.25      94.32      94.39      94.46      94.53      94.60      94.67      94.74      94.81      94.88      94.94      95.01      95.08      95.15      95.22      95.29      95.36      95.43      95.50      95.57      95.64      95.71      95.78      95.84      95.91      95.98      96.05      96.12      96.19      96.26      96.33      96.40      96.47      96.54      96.61      96.68      96.75      96.81      96.88      96.95      97.02      97.09      97.16      97.23      97.30      97.37      97.44      97.51      97.58      97.65      97.71      97.78      97.85      97.92      97.99      98.06      98.13      98.20      98.27      98.34      98.41      98.48      98.55      98.61      98.68      98.75      98.82      98.89      98.96      99.03      99.10      99.17      99.24      99.31      99.38      99.45      99.52      99.58      99.65      99.72      99.79      99.86      99.93     100.00          E       [meth-pax]    [blochl] 
     ----------   ----------   ----------
        0.00000      5.39608      0.00000
        0.01000      5.33895      1.02937
        0.02000      5.17334      1.15264
        0.03000      4.91568      1.14493
        0.04000      4.59094      1.28468
        0.05000      4.22925      1.41482
        0.06000      3.86213      1.53506
        0.07000      3.51874      1.64540
        0.08000      3.22266      1.74627
        0.09000      2.98984      1.85712
        0.10000      2.82771      1.96884
        0.11000      2.73549      2.08339
        0.12000      2.70564      2.20287
        0.13000      2.72592      2.34777
        0.14000      2.78178      2.53329
        0.15000      2.85866      2.72439
        0.16000      2.94386      2.98922
        0.17000      3.02776      3.28251
        0.18000      3.10435      3.59022
        0.19000      3.17107      3.85742
        0.20000      3.22808      4.09408
        0.21000      3.27727      4.39267
        0.22000      3.32103      4.50646
        0.23000      3.36119      4.43433
        0.24000      3.39820      4.21590
        0.25000      3.43063      4.00711
        0.26000      3.45521      3.89622
        0.27000      3.46717      3.81118
        0.28000      3.46099      3.70249
        0.29000      3.43139      3.56959
        0.30000      3.37431      3.41997
        0.31000      3.28791      3.23473
        0.32000      3.17330      2.95248
        0.33000      3.03493      2.81530
        0.34000      2.88065      2.80579
        0.35000      2.72128      2.80873
        0.36000      2.56981      2.82413
        0.37000      2.44028      2.85199
        0.38000      2.34644      2.89067
        0.39000      2.30035      2.81233
        0.40000      2.31095      2.68882
        0.41000      2.38297      2.64233
        0.42000      2.51608      2.66518
        0.43000      2.70463      2.72420
        0.44000      2.93790      2.79275
        0.45000      3.20099      2.86655
        0.46000      3.47618      2.96855
        0.47000      3.74474      3.11226
        0.48000      3.98891      3.52478
        0.49000      4.19373      4.43727
        0.50000      4.34862      4.90470
        0.51000      4.44828      4.85728
        0.52000      4.49292      4.58071
        0.53000      4.48776      4.41386
        0.54000      4.44184      4.40578
        0.55000      4.36641      4.43133
        0.56000      4.27318      4.49613
        0.57000      4.17269      4.54122
        0.58000      4.07306      4.56555
        0.59000      3.97931      4.55705
        0.60000      3.89331      4.51777
        0.61000      3.81430      4.44336
        0.62000      3.73976      4.30721
        0.63000      3.66650      4.44116
        0.64000      3.59174      4.35351
        0.65000      3.51385      4.25524
        0.66000      3.43282      4.17408
        0.67000      3.35024      4.09774
        0.68000      3.26894      4.02114
        0.69000      3.19230      3.94357
        0.70000      3.12353      3.85735
        0.71000      3.06492      3.75528
        0.72000      3.01728      3.65348
        0.73000      2.97969      3.55735
        0.74000      2.94957      3.46955
        0.75000      2.92312      3.39811
        0.76000      2.89595      3.32973
        0.77000      2.86394      3.27595
        0.78000      2.82410      3.24091
        0.79000      2.77536      3.22462
        0.80000      2.71902      3.21243
        0.81000      2.65904      3.18799
        0.82000      2.60181      3.25632
        0.83000      2.55564      3.23493
        0.84000      2.52991      3.20098
        0.85000      2.53397      3.16831
        0.86000      2.57603      3.13691
        0.87000      2.66201      3.10838
        0.88000      2.79466      3.08588
        0.89000      2.97288      3.07949
        0.90000      3.19156      3.09146
        0.91000      3.44161      3.12069
        0.92000      3.71059      3.16583
        0.93000      3.98353      3.22688
        0.94000      4.24403      3.29319
        0.95000      4.47552      3.18514
        0.96000      4.66254      3.07235
        0.97000      4.79193      2.96150
        0.98000      4.85382      2.98545
        0.99000      4.84240      3.05824
        1.00000      4.75632      3.11307
        1.01000      4.59874      3.13816
        1.02000      4.37711      3.13407
        1.03000      4.10245      3.10089
        1.04000      3.78856      3.06161
        1.05000      3.45090      3.09933
        1.06000      3.10544      3.13450
        1.07000      2.76763      3.16714
        1.08000      2.45140      3.19730
        1.09000      2.16853      3.22500
        1.10000      1.92828      3.25415
        1.11000      1.73736      3.33604
        1.12000      1.60012      3.38079
        1.13000      1.51896      3.38841
        1.14000      1.49472      3.35893
        1.15000      1.52706      3.30437
        1.16000      1.61457      3.32297
        1.17000      1.75474      3.29806
        1.18000      1.94370      3.26226
        1.19000      2.17577      3.23089
        1.20000      2.44313      3.20370
        1.21000      2.73556      3.18131
        1.22000      3.04048      3.16408
        1.23000      3.34344      3.14765
        1.24000      3.62889      3.13032
        1.25000      3.88143      3.11022
        1.26000      4.08720      3.09155
        1.27000      4.23530      3.09003
        1.28000      4.31908      3.09034
        1.29000      4.33697      3.09272
        1.30000      4.29289      3.09835
        1.31000      4.19589      3.10814
        1.32000      4.05937      3.12227
        1.33000      3.89964      3.13877
        1.34000      3.73421      3.15941
        1.35000      3.58001      3.18442
        1.36000      3.45161      3.21388
        1.37000      3.35984      3.24788
        1.38000      3.31083      3.27100
        1.39000      3.30565      3.26387
        1.40000      3.34047      3.26295
        1.41000      3.40724      3.28606
        1.42000      3.49484      3.30586
        1.43000      3.59037      3.32228
        1.44000      3.68067      3.33570
        1.45000      3.75367      3.34792
        1.46000      3.79964      3.35737
        1.47000      3.81211      3.37653
        1.48000      3.78841      3.40407
        1.49000      3.72983      3.48995
        1.50000      3.64137      3.55140
        1.51000      3.53110      3.57180
        1.52000      3.40926      3.56527
        1.53000      3.28705      3.54982
        1.54000      3.17548      3.53684
        1.55000      3.08411      3.54697
        1.56000      3.02014      3.55979
        1.57000      2.98769      3.57646
        1.58000      2.98753      3.59560
        1.59000      3.01730      3.61656
        1.60000      3.07210      3.63861
        1.61000      3.14537      3.66086
        1.62000      3.23003      3.67992
        1.63000      3.31954      3.69843
        1.64000      3.40880      3.71555
        1.65000      3.49467      3.73496
        1.66000      3.57614      3.75779
        1.67000      3.65397      3.77707
        1.68000      3.73005      3.79141
        1.69000      3.80654      3.80210
        1.70000      3.88494      3.80564
        1.71000      3.96544      3.81177
        1.72000      4.04642      3.82031
        1.73000      4.12444      3.80563
        1.74000      4.19457      3.76938
        1.75000      4.25101      3.74928
        1.76000      4.28789      3.74410
        1.77000      4.30005      3.75195
        1.78000      4.28373      3.76290
        1.79000      4.23699      3.77730
        1.80000      4.15985      3.79243
        1.81000      4.05425      3.80792
        1.82000      3.92381      3.82338
        1.83000      3.77346      3.83874
        1.84000      3.60918      3.85393
        1.85000      3.43775      3.87282
        1.86000      3.26658      3.89734
        1.87000      3.10356      3.93016
        1.88000      2.95683      3.96639
        1.89000      2.83446      4.00610
        1.90000      2.74386      4.05237
        1.91000      2.69107      4.10578
        1.92000      2.67988      4.16339
        1.93000      2.71099      4.21622
        1.94000      2.78138      4.25983
        1.95000      2.88411      4.29670
        1.96000      3.00864      4.32697
        1.97000      3.14177      4.35099
        1.98000      3.26908      4.36880
        1.99000      3.37684      4.37848
        2.00000      3.45390      4.38452
        2.01000      3.49343      4.38484
        2.02000      3.49409      4.37976
        2.03000      3.46041      4.36985
        2.04000      3.40234      4.35586
        2.05000      3.33390      4.34514
        2.06000      3.27124      4.34191
        2.07000      3.23029      4.33209
        2.08000      3.22452      4.31579
        2.09000      3.26298      4.29550
        2.10000      3.34917      4.26852
        2.11000      3.48065      4.23391
        2.12000      3.64960      4.19163
        2.13000      3.84419      4.14204
        2.14000      4.05051      4.09360
        2.15000      4.25463      4.08227
        2.16000      4.44475      4.10627
        2.17000      4.61273      4.15050
        2.18000      4.75506      4.30784
        2.19000      4.87298      4.24809
        2.20000      4.97181      4.27184
        2.21000      5.05956      4.50754
        2.22000      5.14506      5.03350
        2.23000      5.23598      4.77106
        2.24000      5.33696      4.61519
        2.25000      5.44826      4.46699
        2.26000      5.56510      4.32058
        2.27000      5.67792      4.17597
        2.28000      5.77336      4.12331
        2.29000      5.83600      4.05291
        2.30000      5.85048      4.00553
        2.31000      5.80372      4.00780
        2.32000      5.68682      4.03471
        2.33000      5.49647      4.12781
        2.34000      5.23555      3.43453
        2.35000      4.91290      3.40967
        2.36000      4.54243      3.38378
        2.37000      4.14160      3.35415
        2.38000      3.72967      3.32279
        2.39000      3.32595      3.28983
        2.40000      2.94832      3.25495
        2.41000      2.61210      3.21788
        2.42000      2.32948      3.17964
        2.43000      2.10926      3.14022
        2.44000      1.95704      3.10062
        2.45000      1.87542      3.06432
        2.46000      1.86431      3.03124
        2.47000      1.92107      3.00179
        2.48000      2.04058      2.97622
        2.49000      2.21513      2.95040
        2.50000      2.43442      2.92411
        2.51000      2.68559      2.89684
        2.52000      2.95358      2.86791
        2.53000      3.22178      2.83821
        2.54000      3.47301      2.80798
        2.55000      3.69084      2.78841
        2.56000      3.86095      2.75785
        2.57000      3.97245      2.87866
        2.58000      4.01895      3.10007
        2.59000      3.99913      2.70857
        2.60000      3.91678      2.60896
        2.61000      3.78021      2.58994
        2.62000      3.60123      2.56651
        2.63000      3.39366      2.54730
        2.64000      3.17183      2.53092
        2.65000      2.94912      2.51583
        2.66000      2.73683      2.50202
        2.67000      2.54349      2.48949
        2.68000      2.37469      2.47828
        2.69000      2.23332      2.46836
        2.70000      2.12014      2.45976
        2.71000      2.03456      2.44641
        2.72000      1.97529      2.43443
        2.73000      1.94094      2.42553
        2.74000      1.93024      2.41975
        2.75000      1.94210      2.41708
        2.76000      1.97538      2.41750
        2.77000      2.02851      2.42101
        2.78000      2.09922      2.42761
        2.79000      2.18426      2.43725
        2.80000      2.27933      2.44652
        2.81000      2.37928      2.46153
        2.82000      2.47836      2.47925
        2.83000      2.57069      2.50020
        2.84000      2.65077      2.52412
        2.85000      2.71395      2.55088
        2.86000      2.75677      2.58484
        2.87000      2.77726      2.60449
        2.88000      2.77504      2.50315
        2.89000      2.75128      2.51405
        2.90000      2.70858      2.51807
        2.91000      2.65067      2.50770
        2.92000      2.58217      2.48300
        2.93000      2.50810      2.46525
        2.94000      2.43360      2.46637
        2.95000      2.36341      2.46719
        2.96000      2.30159      2.46776
        2.97000      2.25122      2.46829
        2.98000      2.21413      2.46894
        2.99000      2.19091      2.46976
        3.00000      2.18086      2.47076
        3.01000      2.18216      2.47313
        3.02000      2.19211      2.47618
        3.03000      2.20741      2.47947
        3.04000      2.22444      2.48368
        3.05000      2.23967      2.48636
        3.06000      2.24993      2.48751
        3.07000      2.25273      2.48719
        3.08000      2.24652      2.48698
        3.09000      2.23098      2.48735
        3.10000      2.20713      2.48831
        3.11000      2.17746      2.48991
        3.12000      2.14585      2.49213
        3.13000      2.11737      2.49486
        3.14000      2.09790      2.49806
        3.15000      2.09354      2.50169
        3.16000      2.10997      2.50596
        3.17000      2.15162      2.51100
        3.18000      2.22102      2.51684
        3.19000      2.31817      2.52381
        3.20000      2.44020      2.53259
        3.21000      2.58134      2.54382
        3.22000      2.73319      2.55748
        3.23000      2.88534      2.57649
        3.24000      3.02628      2.59427
        3.25000      3.14443      2.61413
        3.26000      3.22926      2.63608
        3.27000      3.27232      2.66020
        3.28000      3.26807      2.68592
        3.29000      3.21446      2.71233
        3.30000      3.11312      2.74058
        3.31000      2.96920      2.77416
        3.32000      2.79097      2.81244
        3.33000      2.58899      2.85501
        3.34000      2.37528      2.80327
        3.35000      2.16228      2.71832
        3.36000      1.96195      2.68743
        3.37000      1.78487      2.68265
        3.38000      1.63962      2.68467
        3.39000      1.53234      2.69351
        3.40000      1.46648      2.70642
        3.41000      1.44287      2.71887
        3.42000      1.45983      2.73078
        3.43000      1.51359      2.74214
        3.44000      1.59869      2.75295
        3.45000      1.70850      2.76323
        3.46000      1.83576      2.77088
        3.47000      1.97307      2.77906
        3.48000      2.11337      2.78979
        3.49000      2.25033      2.80098
        3.50000      2.37867      2.81228
        3.51000      2.49436      2.82316
        3.52000      2.59478      2.83158
        3.53000      2.67872      2.84073
        3.54000      2.74630      2.84686
        3.55000      2.79887      2.85003
        3.56000      2.83877      2.85142
        3.57000      2.86907      2.85398
        3.58000      2.89326      2.85762
        3.59000      2.91492      2.84436
        3.60000      2.93743      2.82694
        3.61000      2.96366      2.80715
        3.62000      2.99578      2.78476
        3.63000      3.03504      2.75991
        3.64000      3.08170      2.73294
        3.65000      3.13496      2.70387
        3.66000      3.19295      2.67609
        3.67000      3.25278      2.64538
        3.68000      3.31060      2.61104
        3.69000      3.36173      2.57549
        3.70000      3.40092      2.53767
        3.71000      3.42262      2.50087
        3.72000      3.42149      2.46379
        3.73000      3.39288      2.42902
        3.74000      3.33353      2.39704
        3.75000      3.24209      2.36372
        3.76000      3.11960      2.32740
        3.77000      2.96973      2.28855
        3.78000      2.79866      2.25523
        3.79000      2.61460      2.23135
        3.80000      2.42702      2.21140
        3.81000      2.24561      2.20094
        3.82000      2.07922      2.19871
        3.83000      1.93482      2.19597
        3.84000      1.81684      2.19273
        3.85000      1.72681      2.18898
        3.86000      1.66346      2.18468
        3.87000      1.62323      2.17966
        3.88000      1.60105      2.17391
        3.89000      1.59127      2.16792
        3.90000      1.58853      2.16313
        3.91000      1.58858      2.15932
        3.92000      1.58869      2.15623
        3.93000      1.58790      2.15386
        3.94000      1.58694      2.15206
        3.95000      1.58792      2.15018
        3.96000      1.59392      2.14815
        3.97000      1.60847      2.14604
        3.98000      1.63502      2.14401
        3.99000      1.67654      2.14597
        4.00000      1.73506      2.15355
        4.01000      1.81146      2.16660
        4.02000      1.90520      2.18528
        4.03000      2.01433      2.20959
        4.04000      2.13547      2.23951
        4.05000      2.26405      2.25681
        4.06000      2.39464      2.25983
        4.07000      2.52138      2.24829
        4.08000      2.63856      2.22170
        4.09000      2.74121      2.18151
        4.10000      2.82572      2.12802
        4.11000      2.89028      2.08512
        4.12000      2.93521      2.09040
        4.13000      2.96292      2.09317
        4.14000      2.97766      2.09409
        4.15000      2.98491      2.08358
        4.16000      2.99060      2.04495
        4.17000      3.00011      2.00704
        4.18000      3.01746      1.97142
        4.19000      3.04456      1.93865
        4.20000      3.08084      1.90789
        4.21000      3.12335      1.88220
        4.22000      3.16708      1.86319
        4.23000      3.20583      1.85089
        4.24000      3.23305      1.84526
        4.25000      3.24282      1.84558
        4.26000      3.23062      1.86945
        4.27000      3.19386      1.91955
        4.28000      3.13209      1.99186
        4.29000      3.04686      2.08626
        4.30000      2.94146      2.18302
        4.31000      2.82044      2.33913
        4.32000      2.68918      2.58334
        4.33000      2.55342      2.70287
        4.34000      2.41897      2.49440
        4.35000      2.29135      2.10204
        4.36000      2.17560      1.86296
        4.37000      2.07588      1.84368
        4.38000      1.99527      1.83435
        4.39000      1.93540      1.82486
        4.40000      1.89626      1.80783
        4.41000      1.87611      1.79170
        4.42000      1.87157      1.77766
        4.43000      1.87799      1.76570
        4.44000      1.88997      1.75598
        4.45000      1.90200      1.74976
        4.46000      1.90921      1.74739
        4.47000      1.90787      1.77605
        4.48000      1.89582      1.81718
        4.49000      1.87260      1.82526
        4.50000      1.83932      1.80419
        4.51000      1.79833      1.78026
        4.52000      1.75281      1.75835
        4.53000      1.70630      1.73849
        4.54000      1.66225      1.72065
        4.55000      1.62372      1.70486
        4.56000      1.59313      1.69128
        4.57000      1.57210      1.67962
        4.58000      1.56137      1.67001
        4.59000      1.56070      1.66269
        4.60000      1.56885      1.65743
        4.61000      1.58354      1.65422
        4.62000      1.60157      1.65306
        4.63000      1.61897      1.65355
        4.64000      1.63133      1.65549
        4.65000      1.63424      1.65888
        4.66000      1.62376      1.66301
        4.67000      1.59697      1.66733
        4.68000      1.55232      1.67163
        4.69000      1.48996      1.67545
        4.70000      1.41176      1.68057
        4.71000      1.32116      1.68582
        4.72000      1.22287      1.69120
        4.73000      1.12240      1.69670
        4.74000      1.02561      1.70234
        4.75000      0.93825      1.70857
        4.76000      0.86559      1.71471
        4.77000      0.81217      1.72094
        4.78000      0.78157      1.72722
        4.79000      0.77631      1.73353
        4.80000      0.79774      1.73988
        4.81000      0.84597      1.74684
        4.82000      0.91972      1.75451
        4.83000      1.01629      1.76297
        4.84000      1.13156      1.77224
        4.85000      1.26007      1.78230
        4.86000      1.39530      1.79317
        4.87000      1.53005      1.80483
        4.88000      1.65702      1.80952
        4.89000      1.76946      1.79816
        4.90000      1.86177      1.78827
        4.91000      1.93011      1.77993
        4.92000      1.97277      1.77326
        4.93000      1.99033      1.76759
        4.94000      1.98554      1.76374
        4.95000      1.96295      1.76208
        4.96000      1.92830      1.76262
        4.97000      1.88783      1.76537
        4.98000      1.84749      1.77138
        4.99000      1.81228      1.78116
        5.00000      1.78571      1.79026
        5.01000      1.76950      1.79763
        5.02000      1.76354      1.80449
        5.03000      1.76610      1.81084
        5.04000      1.77423      1.81652
        5.05000      1.78433      1.82146
        5.06000      1.79269      1.82595
        5.07000      1.79612      1.83030
        5.08000      1.79232      1.83422
        5.09000      1.78014      1.83775
        5.10000      1.75969      1.84101
        5.11000      1.73218      1.84403
        5.12000      1.69964      1.84682
        5.13000      1.66462      1.84944
        5.14000      1.62972      1.85201
        5.15000      1.59735      1.85451
        5.16000      1.56941      1.85694
        5.17000      1.54718      1.85925
        5.18000      1.53132      1.86148
        5.19000      1.52197      1.86344
        5.20000      1.51893      1.86487
        5.21000      1.52192      1.86517
        5.22000      1.53075      1.86428
        5.23000      1.54553      1.86222
        5.24000      1.56668      1.85897
        5.25000      1.59492      1.85349
        5.26000      1.63106      1.84590
        5.27000      1.67583      1.83745
        5.28000      1.72952      1.82818
        5.29000      1.79182      1.81806
        5.30000      1.86166      1.80708
        5.31000      1.93715      1.79525
        5.32000      2.01578      1.78256
        5.33000      2.09459      1.78133
        5.34000      2.17052      1.78223
        5.35000      2.24070      1.78342
        5.36000      2.30265      1.78735
        5.37000      2.35442      1.79186
        5.38000      2.39456      1.79691
        5.39000      2.42199      1.80280
        5.40000      2.43586      1.80959
        5.41000      2.43536      1.81737
        5.42000      2.41966      1.82615
        5.43000      2.38795      1.83660
        5.44000      2.33961      1.84875
        5.45000      2.27448      1.86155
        5.46000      2.19316      1.87352
        5.47000      2.09729      1.88587
        5.48000      1.98974      1.89827
        5.49000      1.87459      1.91048
        5.50000      1.75698      1.92244
        5.51000      1.64270      1.93413
        5.52000      1.53770      1.94567
        5.53000      1.44745      1.95706
        5.54000      1.37641      1.96830
        5.55000      1.32744      1.97935
        5.56000      1.30158      1.99019
        5.57000      1.29787      2.00082
        5.58000      1.31360      2.01124
        5.59000      1.34470      2.02145
        5.60000      1.38639      2.03026
        5.61000      1.43396      2.03829
        5.62000      1.48350      2.04598
        5.63000      1.53263      2.05333
        5.64000      1.58090      2.05948
        5.65000      1.63001      2.06506
        5.66000      1.68357      2.07013
        5.67000      1.74658      2.07470
        5.68000      1.82467      2.07898
        5.69000      1.92313      2.08279
        5.70000      2.04584      2.08652
        5.71000      2.19451      2.09031
        5.72000      2.36792      2.09416
        5.73000      2.56173      2.09886
        5.74000      2.76853      2.10377
        5.75000      2.97834      2.10851
        5.76000      3.17949      2.11610
        5.77000      3.35960      2.12702
        5.78000      3.50684      2.14066
        5.79000      3.61105      2.15778
        5.80000      3.66472      2.17720
        5.81000      3.66381      2.20175
        5.82000      3.60809      2.23303
        5.83000      3.50121      2.25826
        5.84000      3.35030      2.28495
        5.85000      3.16531      2.31011
        5.86000      2.95799      2.33376
        5.87000      2.74075      2.35622
        5.88000      2.52553      2.37773
        5.89000      2.32270      2.39850
        5.90000      2.14025      2.41854
        5.91000      1.98330      2.43784
        5.92000      1.85392      2.45641
        5.93000      1.75138      2.47424
        5.94000      1.67262      2.49153
        5.95000      1.61304      2.50529
        5.96000      1.56727      2.51831
        5.97000      1.53008      2.53113
        5.98000      1.49703      2.54387
        5.99000      1.46508      2.55590
        6.00000      1.43289      2.56722
        6.01000      1.40098      2.57783
        6.02000      1.37152      2.58774
        6.03000      1.34807      2.59676
        6.04000      1.33510      2.60531
        6.05000      1.33740      2.61338
        6.06000      1.35956      2.62098
        6.07000      1.40535      2.62814
        6.08000      1.47735      2.63486
        6.09000      1.57661      2.64117
        6.10000      1.70257      2.64704
        6.11000      1.85307      2.65321
        6.12000      2.02458      2.66120
        6.13000      2.21253      2.67540
        6.14000      2.41166      2.69249
        6.15000      2.61646      2.71211
        6.16000      2.82145      2.73633
        6.17000      3.02155      2.77389
        6.18000      3.21215      2.86751
        6.19000      3.38927      3.03302
        6.20000      3.54950      3.23675
        6.21000      3.68992      3.39325
        6.22000      3.80803      3.49533
        6.23000      3.90163      3.42511
        6.24000      3.96881      3.44894
        6.25000      4.00798      3.48161
        6.26000      4.01802      3.51788
        6.27000      3.99850      3.56676
        6.28000      3.95004      3.62286
        6.29000      3.87454      3.67786
        6.30000      3.77554      3.70100
        6.31000      3.65832      3.69309
        6.32000      3.52988      3.65630
        6.33000      3.39866      3.59290
        6.34000      3.27406      3.50377
        6.35000      3.16564      3.38846
        6.36000      3.08230      3.25158
        6.37000      3.03126      3.14325
        6.38000      3.01723      3.08111
        6.39000      3.04174      3.05370
        6.40000      3.10279      3.03065
        6.41000      3.19499      3.01230
        6.42000      3.31003      2.99867
        6.43000      3.43766      2.99157
        6.44000      3.56693      2.99155
        6.45000      3.68751      2.99655
        6.46000      3.79100      3.01034
        6.47000      3.87198      3.08786
        6.48000      3.92852      3.15332
        6.49000      3.96226      3.18603
        6.50000      3.97786      3.19865
        6.51000      3.98197      3.21113
        6.52000      3.98190      3.22360
        6.53000      3.98415      3.23396
        6.54000      3.99307      3.24157
        6.55000      4.00989      3.23754
        6.56000      4.03221      3.21969
        6.57000      4.05416      3.18826
        6.58000      4.06712      3.14409
        6.59000      4.06090      3.08735
        6.60000      4.02530      3.05810
        6.61000      3.95169      3.06534
        6.62000      3.83449      3.06871
        6.63000      3.67233      3.07888
        6.64000      3.46869      3.05944
        6.65000      3.23196      3.03614
        6.66000      2.97497      3.03794
        6.67000      2.71394      3.03624
        6.68000      2.46708      3.02833
        6.69000      2.25291      3.01382
        6.70000      2.08846      2.99227
        6.71000      1.98761      2.96384
        6.72000      1.95967      2.92851
        6.73000      2.00827      2.88628
        6.74000      2.13086      2.83716
        6.75000      2.31874      2.81596
        6.76000      2.55762      2.80318
        6.77000      2.82882      2.79132
        6.78000      3.11085      2.78040
        6.79000      3.38132      2.77094
        6.80000      3.61889      2.76697
        6.81000      3.80512      3.02329
        6.82000      3.92599      3.02046
        6.83000      3.97290      2.95007
        6.84000      3.94316      2.88556
        6.85000      3.83978      2.82733
        6.86000      3.67075      2.77551
        6.87000      3.44798      2.75262
        6.88000      3.18590      2.73440
        6.89000      2.90007      2.71755
        6.90000      2.60591      2.71145
        6.91000      2.31770      2.72097
        6.92000      2.04784      2.70796
        6.93000      1.80651      2.69019
        6.94000      1.60158      2.67206
        6.95000      1.43866      2.65394
        6.96000      1.32134      2.63744
        6.97000      1.25132      2.59251
        6.98000      1.22854      2.55058
        6.99000      1.25130      2.51744
        7.00000      1.31620      2.48799
        7.01000      1.41824      2.46225
        7.02000      1.55094      2.44020
        7.03000      1.70660      2.42185
        7.04000      1.87667      2.40991
        7.05000      2.05232      2.40586
        7.06000      2.22502      2.29138
        7.07000      2.38713      2.28307
        7.08000      2.53234      2.29750
        7.09000      2.65608      2.32341
        7.10000      2.75554      2.35678
        7.11000      2.82964      2.38532
        7.12000      2.87874      2.40616
        7.13000      2.90428      2.42775
        7.14000      2.90836      2.44897
        7.15000      2.89339      2.47387
        7.16000      2.86177      2.50015
        7.17000      2.81570      2.52170
        7.18000      2.75710      2.53856
        7.19000      2.68764      2.55079
        7.20000      2.60881      2.59365
        7.21000      2.52205      2.64537
        7.22000      2.42886      2.68032
        7.23000      2.33089      2.69947
        7.24000      2.23003      2.70283
        7.25000      2.12839      2.69038
        7.26000      2.02831      2.67003
        7.27000      1.93223      2.62715
        7.28000      1.84260      2.57525
        7.29000      1.76173      2.52099
        7.30000      1.69163      2.46831
        7.31000      1.63389      2.41720
        7.32000      1.58956      2.36766
        7.33000      1.55918      2.31971
        7.34000      1.54271      2.27355
        7.35000      1.53972      2.23076
        7.36000      1.54953      2.19600
        7.37000      1.57135      2.17237
        7.38000      1.60455      2.16069
        7.39000      1.64871      2.16121
        7.40000      1.70374      2.17652
        7.41000      1.76977      2.20729
        7.42000      1.84701      2.22057
        7.43000      1.93542      2.25337
        7.44000      2.03442      2.27467
        7.45000      2.14256      2.27288
        7.46000      2.25724      2.24805
        7.47000      2.37468      2.20023
        7.48000      2.48998      2.18962
        7.49000      2.59745      2.21676
        7.50000      2.69110      2.24511
        7.51000      2.76525      2.27770
        7.52000      2.81513      2.31925
        7.53000      2.83743      2.37341
        7.54000      2.83070      2.44033
        7.55000      2.79545      2.51969
        7.56000      2.73412      2.58529
        7.57000      2.65076      2.62710
        7.58000      2.55061      2.64526
        7.59000      2.43952      2.64829
        7.60000      2.32348      2.63691
        7.61000      2.20815      2.60413
        7.62000      2.09849      2.54996
        7.63000      1.99859      2.47444
        7.64000      1.91152      2.38541
        7.65000      1.83942      2.28849
        7.66000      1.78349      2.18368
        7.67000      1.74420      2.07099
        7.68000      1.72136      1.98871
        7.69000      1.71429      1.93765
        7.70000      1.72192      1.89333
        7.71000      1.74285      1.85249
        7.72000      1.77544      1.81511
        7.73000      1.81780      1.78220
        7.74000      1.86781      1.75325
        7.75000      1.92309      1.72870
        7.76000      1.98105      1.70193
        7.77000      2.03890      1.67632
        7.78000      2.09375      1.65422
        7.79000      2.14280      1.63558
        7.80000      2.18359      1.61702
        7.81000      2.21422      1.59731
        7.82000      2.23367      1.58283
        7.83000      2.24201      1.57361
        7.84000      2.24050      1.56846
        7.85000      2.23160      1.56682
        7.86000      2.21871      1.56087
        7.87000      2.20587      1.55825
        7.88000      2.19724      1.55953
        7.89000      2.19659      1.56479
        7.90000      2.20678      1.57397
        7.91000      2.22939      1.58717
        7.92000      2.26446      1.60364
        7.93000      2.31052      1.62102
        7.94000      2.36477      1.63901
        7.95000      2.42348      1.65761
        7.96000      2.48252      1.67688
        7.97000      2.53790      1.70777
        7.98000      2.58631      1.75258
        7.99000      2.62550      1.77920
        8.00000      2.65450      1.80679
        8.01000      2.67365      1.83484
        8.02000      2.68435      1.86004
        8.03000      2.68875      1.88899
        8.04000      2.68924      1.92268
        8.05000      2.68801      1.96603
        8.06000      2.68668      2.01335
        8.07000      2.68603      2.05729
        8.08000      2.68603      2.07320
        8.09000      2.68599      2.07919
        8.10000      2.68491      2.08123
        8.11000      2.68191      2.09003
        8.12000      2.67664      2.11387
        8.13000      2.66943      2.12383
        8.14000      2.66143      2.12395
        8.15000      2.65425      2.11529
        8.16000      2.64962      2.09780
        8.17000      2.64877      2.07594
        8.18000      2.65185      2.05881
        8.19000      2.65756      2.04737
        8.20000      2.66301      2.04054
        8.21000      2.66388      2.03696
        8.22000      2.65498      2.03350
        8.23000      2.63100      2.03867
        8.24000      2.58745      2.05154
        8.25000      2.52148      2.06415
        8.26000      2.43255      2.07827
        8.27000      2.32277      2.09452
        8.28000      2.19682      2.11296
        8.29000      2.06158      2.13413
        8.30000      1.92532      2.15817
        8.31000      1.79678      2.18514
        8.32000      1.68415      2.21465
        8.33000      1.59415      2.24698
        8.34000      1.53126      2.28138
        8.35000      1.49731      2.31419
        8.36000      1.49135      2.34494
        8.37000      1.50991      2.37299
        8.38000      1.54750      2.39817
        8.39000      1.59743      2.42045
        8.40000      1.65264      2.39708
        8.41000      1.70667      2.36886
        8.42000      1.75436      2.38747
        8.43000      1.79246      2.40671
        8.44000      1.81984      2.38852
        8.45000      1.83745      2.32180
        8.46000      1.84790      2.28342
        8.47000      1.85476      2.28872
        8.48000      1.86185      2.29500
        8.49000      1.87237      2.30225
        8.50000      1.88821      2.31046
        8.51000      1.90957      2.31965
        8.52000      1.93481      2.33045
        8.53000      1.96067      2.34708
        8.54000      1.98285      2.37462
        8.55000      1.99670      2.41318
        8.56000      1.99811      2.46266
        8.57000      1.98428      2.52247
        8.58000      1.95436      2.59217
        8.59000      1.90979      2.67056
        8.60000      1.85429      2.71191
        8.61000      1.79360      2.69572
        8.62000      1.73482      2.67436
        8.63000      1.68561      2.66979
        8.64000      1.65325      2.67623
        8.65000      1.64381      2.68922
        8.66000      1.66130      2.70605
        8.67000      1.70728      2.72608
        8.68000      1.78054      2.74931
        8.69000      1.87727      2.77574
        8.70000      1.99147      2.80528
        8.71000      2.11553      2.83314
        8.72000      2.24110      2.89392
        8.73000      2.35986      2.92815
        8.74000      2.46433      2.74075
        8.75000      2.54845      2.53746
        8.76000      2.60806      2.52486
        8.77000      2.64107      2.50992
        8.78000      2.64741      2.49240
        8.79000      2.62885      2.47179
        8.80000      2.58869      2.44966
        8.81000      2.53135      2.43074
        8.82000      2.46201      2.40980
        8.83000      2.38623      2.38684
        8.84000      2.30961      2.36184
        8.85000      2.23752      2.33563
        8.86000      2.17477      2.31065
        8.87000      2.12537      2.28703
        8.88000      2.09218      2.23739
        8.89000      2.07670      2.18420
        8.90000      2.07884      2.14448
        8.91000      2.09684      2.11828
        8.92000      2.12734      2.10486
        8.93000      2.16564      2.09600
        8.94000      2.20611      2.08942
        8.95000      2.24277      2.08512
        8.96000      2.26998      2.08440
        8.97000      2.28302      2.08216
        8.98000      2.27879      2.08213
        8.99000      2.25616      2.08211
        9.00000      2.21624      2.08185
        9.01000      2.16236      2.08137
        9.02000      2.09983      2.08128
        9.03000      2.03540      2.08184
        9.04000      1.97659      2.07836
        9.05000      1.93077      2.06616
        9.06000      1.90430      2.05340
        9.07000      1.90155      2.04187
        9.08000      1.92418      2.03160
        9.09000      1.97064      2.09394
        9.10000      2.03605      2.19123
        9.11000      2.11250      2.25473
        9.12000      2.18979      2.28444
        9.13000      2.25659      2.28036
        9.14000      2.30183      2.24281
        9.15000      2.31610      2.17449
        9.16000      2.29301      2.09668
        9.17000      2.23016      2.05144
        9.18000      2.12965      2.01007
        9.19000      1.99802      1.99450
        9.20000      1.84564      1.98457
        9.21000      1.68557      1.97500
        9.22000      1.53216      1.96566
        9.23000      1.39946      1.95596
        9.24000      1.29964      1.94728
        9.25000      1.24173      1.94000
        9.26000      1.23069      1.93221
        9.27000      1.26699      1.92416
        9.28000      1.34670      1.91577
        9.29000      1.46206      1.90684
        9.30000      1.60249      1.89738
        9.31000      1.75579      1.88738
        9.32000      1.90952      1.87685
        9.33000      2.05224      1.86574
        9.34000      2.17452      1.85391
        9.35000      2.26968      1.84211
        9.36000      2.33402      1.83130
        9.37000      2.36678      1.82011
        9.38000      2.36974      1.80827
        9.39000      2.34655      1.79573
        9.40000      2.30211      1.78259
        9.41000      2.24185      1.76881
        9.42000      2.17117      1.75607
        9.43000      2.09505      1.74328
        9.44000      2.01783      1.73049
        9.45000      1.94302      1.71809
        9.46000      1.87339      1.70698
        9.47000      1.81090      1.69718
        9.48000      1.75684      1.68852
        9.49000      1.71186      1.67999
        9.50000      1.67610      1.67141
        9.51000      1.64932      1.65819
        9.52000      1.63109      1.64266
        9.53000      1.62100      1.62815
        9.54000      1.61885      1.61581
        9.55000      1.62490      1.60445
        9.56000      1.63985      1.59387
        9.57000      1.66488      1.58409
        9.58000      1.70141      1.57509
        9.59000      1.75075      1.56704
        9.60000      1.81361      1.56086
        9.61000      1.88964      1.55724
        9.62000      1.97697      1.55477
        9.63000      2.07191      1.55345
        9.64000      2.16899      1.55329
        9.65000      2.26111      1.55370
        9.66000      2.34019      1.55418
        9.67000      2.39788      1.55199
        9.68000      2.42653      1.54901
        9.69000      2.42015      1.54638
        9.70000      2.37525      1.54407
        9.71000      2.29142      1.53836
        9.72000      2.17162      1.53023
        9.73000      2.02213      1.52247
        9.74000      1.85204      1.51511
        9.75000      1.67260      1.50814
        9.76000      1.49618      1.50158
        9.77000      1.33525      1.49575
        9.78000      1.20132      1.48976
        9.79000      1.10391      1.48367
        9.80000      1.04978      1.47848
        9.81000      1.04231      1.47417
        9.82000      1.08124      1.47076
        9.83000      1.16259      1.46824
        9.84000      1.27896      1.46660
        9.85000      1.42016      1.46580
        9.86000      1.57397      1.46584
        9.87000      1.72721      1.46672
        9.88000      1.86687      1.46750
        9.89000      1.98119      1.46566
        9.90000      2.06077      1.46444
        9.91000      2.09928      1.47015
        9.92000      2.09403      1.48322
        9.93000      2.04608      1.50283
        9.94000      1.96001      1.52383
        9.95000      1.84335      1.54371
        9.96000      1.70572      1.55804
        9.97000      1.55786      1.56895
        9.98000      1.41051      1.57644
        9.99000      1.27347      1.58054
       10.00000      1.15478      1.58115
       10.01000      1.06018      1.57823
       10.02000      0.99290      1.57178
       10.03000      0.95370      1.56178
       10.04000      0.94120      1.54825
       10.05000      0.95240      1.53119
       10.06000      0.98328      1.51273
       10.07000      1.02932      1.51822
       10.08000      1.08605      1.52399
       10.09000      1.14936      1.52930
       10.10000      1.21566      1.53354
       10.11000      1.28196      1.53664
       10.12000      1.34576      1.53860
       10.13000      1.40501      1.53941
       10.14000      1.45792      1.53907
       10.15000      1.50295      1.53753
       10.16000      1.53879      1.53474
       10.17000      1.56433      1.53069
       10.18000      1.57872      1.52537
       10.19000      1.58140      1.51879
       10.20000      1.57208      1.51245
       10.21000      1.55076      1.50625
       10.22000      1.51769      1.50018
       10.23000      1.47337      1.49425
       10.24000      1.41859      1.48850
       10.25000      1.35451      1.49287
       10.26000      1.28273      1.51497
       10.27000      1.20544      1.52246
       10.28000      1.12547      1.51552
       10.29000      1.04630      1.50839
       10.30000      0.97191      1.50135
       10.31000      0.90657      1.49474
       10.32000      0.85449      1.48857
       10.33000      0.81934      1.48284
       10.34000      0.80388      1.47755
       10.35000      0.80954      1.47270
       10.36000      0.83622      1.46830
       10.37000      0.88220      1.46434
       10.38000      0.94429      1.46082
       10.39000      1.01812      1.45774
       10.40000      1.09861      1.45510
       10.41000      1.18047      1.45290
       10.42000      1.25873      1.45114
       10.43000      1.32915      1.45027
       10.44000      1.38859      1.45097
       10.45000      1.43517      1.45325
       10.46000      1.46833      1.45713
       10.47000      1.48876      1.46259
       10.48000      1.49826      1.46967
       10.49000      1.49947      1.47839
       10.50000      1.49563      1.48875
       10.51000      1.49031      1.48799
       10.52000      1.48704      1.48497
       10.53000      1.48908      1.48201
       10.54000      1.49910      1.47887
       10.55000      1.51891      1.47549
       10.56000      1.54936      1.47182
       10.57000      1.59017      1.46784
       10.58000      1.63997      1.46351
       10.59000      1.69641      1.45822
       10.60000      1.75634      1.45173
       10.61000      1.81609      1.44341
       10.62000      1.87179      1.43267
       10.63000      1.91965      1.41954
       10.64000      1.95629      1.40403
       10.65000      1.97899      1.38613
       10.66000      1.98597      1.36584
       10.67000      1.97646      1.34313
       10.68000      1.95086      1.31893
       10.69000      1.91069      1.29622
       10.70000      1.85841      1.27918
       10.71000      1.79722      1.26602
       10.72000      1.73070      1.25434
       10.73000      1.66238      1.24438
       10.74000      1.59537      1.23368
       10.75000      1.53204      1.22224
       10.76000      1.47380      1.21005
       10.77000      1.42108      1.19711
       10.78000      1.37347      1.18294
       10.79000      1.32997      1.16787
       10.80000      1.28937      1.15199
       10.81000      1.25053      1.13495
       10.82000      1.21269      1.11728
       10.83000      1.17555      1.09834
       10.84000      1.13930      1.07815
       10.85000      1.10447      1.05954
       10.86000      1.07167      1.04339
       10.87000      1.04144      1.02798
       10.88000      1.01401      1.01330
       10.89000      0.98920      0.99987
       10.90000      0.96648      0.98796
       10.91000      0.94508      0.97711
       10.92000      0.92413      0.96975
       10.93000      0.90290      0.96246
       10.94000      0.88098      0.95521
       10.95000      0.85836      0.94801
       10.96000      0.83549      0.94091
       10.97000      0.81321      0.93390
       10.98000      0.79263      0.92689
       10.99000      0.77500      0.91965
       11.00000      0.76153      0.91213
       11.01000      0.75321      0.90435
       11.02000      0.75075      0.89629
       11.03000      0.75445      0.88795
       11.04000      0.76420      0.87890
       11.05000      0.77946      0.86949
       11.06000      0.79923      0.86004
       11.07000      0.82216      0.85055
       11.08000      0.84650      0.84103
       11.09000      0.87026      0.83146
       11.10000      0.89124      0.82185
       11.11000      0.90724      0.81207
       11.12000      0.91616      0.80167
       11.13000      0.91632      0.79115
       11.14000      0.90655      0.77991
       11.15000      0.88647      0.76837
       11.16000      0.85654      0.75682
       11.17000      0.81810      0.74523
       11.18000      0.77331      0.73359
       11.19000      0.72484      0.72191
       11.20000      0.67568      0.71017
       11.21000      0.62864      0.69781
       11.22000      0.58610      0.68366
       11.23000      0.54960      0.66955
       11.24000      0.51970      0.65547
       11.25000      0.49588      0.64144
       11.26000      0.47668      0.62744
       11.27000      0.45992      0.61348
       11.28000      0.44307      0.59955
       11.29000      0.42362      0.58566
       11.30000      0.39948      0.57187
       11.31000      0.36925      0.55849
       11.32000      0.33243      0.54564
       11.33000      0.28941      0.53330
       11.34000      0.24142      0.52149
       11.35000      0.19036      0.51020
       11.36000      0.13854      0.49944
       11.37000      0.08849      0.48919
       11.38000      0.04278      0.47947
       11.39000      0.00390      0.47027
       11.40000     -0.02582      0.46160
       11.41000     -0.04417      0.45344
       11.42000     -0.04913      0.44581
       11.43000     -0.03891      0.43871
       11.44000     -0.01203      0.43212
       11.45000      0.03242      0.42606
       11.46000      0.09458      0.42051
       11.47000      0.17353      0.41550
       11.48000      0.26711      0.41100
       11.49000      0.37180      0.40703
       11.50000      0.48285      0.40358
       11.51000      0.59452      0.40065
       11.52000      0.70066      0.39824
       11.53000      0.79526      0.39636
       11.54000      0.87319      0.39500
       11.55000      0.93080      0.39416
       11.56000      0.96634      0.39357
       11.57000      0.98011      0.39230
       11.58000      0.97433      0.39088
       11.59000      0.95263      0.38931
       11.60000      0.91945      0.38758
       11.61000      0.87929      0.38570
       11.62000      0.83598      0.38366
       11.63000      0.79226      0.38147
       11.64000      0.74953      0.37912
       11.65000      0.70795      0.37662
       11.66000      0.66679      0.37397
       11.67000      0.62496      0.37116
       11.68000      0.58156      0.36838
       11.69000      0.53638      0.36571
       11.70000      0.49019      0.36317
       11.71000      0.44475      0.36074
       11.72000      0.40261      0.35843
       11.73000      0.36671      0.35624
       11.74000      0.33985      0.35416
       11.75000      0.32419      0.35220
       11.76000      0.32081      0.35037
       11.77000      0.32951      0.34865
       11.78000      0.34876      0.34704
       11.79000      0.37595      0.34556
       11.80000      0.40771      0.34419
       11.81000      0.44039      0.34294
       11.82000      0.47053      0.34181
       11.83000      0.49526      0.34254
       11.84000      0.51259      0.34328
       11.85000      0.52152      0.34386
       11.86000      0.52205      0.34426
       11.87000      0.51499      0.34448
       11.88000      0.50173      0.34454
       11.89000      0.48397      0.34442
       11.90000      0.46342      0.34413
       11.91000      0.44164      0.34367
       11.92000      0.41982      0.34303
       11.93000      0.39881      0.34223
       11.94000      0.37908      0.34139
       11.95000      0.36083      0.34055
       11.96000      0.34405      0.33972
       11.97000      0.32867      0.33889
       11.98000      0.31465      0.33807
       11.99000      0.30203      0.33726
       12.00000      0.29097      0.33645
       12.01000      0.28181      0.33565
       12.02000      0.27497      0.33485
       12.03000      0.27097      0.33405
       12.04000      0.27036      0.33326
       12.05000      0.27363      0.33247
       12.06000      0.28112      0.33169
       12.07000      0.29295      0.33091
       12.08000      0.30892      0.33013
       12.09000      0.32844      0.32936
       12.10000      0.35052      0.32860
       12.11000      0.37381      0.32784
       12.12000      0.39669      0.32708
       12.13000      0.41739      0.32634
       12.14000      0.43422      0.32559
       12.15000      0.44572      0.32485
       12.16000      0.45085      0.32451
       12.17000      0.44905      0.32618
       12.18000      0.44034      0.32774
       12.19000      0.42522      0.32917
       12.20000      0.40455      0.33048
       12.21000      0.37945      0.33167
       12.22000      0.35111      0.33274
       12.23000      0.32071      0.33369
       12.24000      0.28930      0.33452
       12.25000      0.25784      0.33523
       12.26000      0.22723      0.33582
       12.27000      0.19833      0.33628
       12.28000      0.17207      0.33662
       12.29000      0.14944      0.33683
       12.30000      0.13152      0.33692
       12.31000      0.11936      0.33688
       12.32000      0.11395      0.33673
       12.33000      0.11602      0.33644
       12.34000      0.12598      0.33603
       12.35000      0.14375      0.33550
       12.36000      0.16874      0.33484
       12.37000      0.19976      0.33406
       12.38000      0.23512      0.33316
       12.39000      0.27266      0.33219
       12.40000      0.30991      0.33136
       12.41000      0.34427      0.33068
       12.42000      0.37324      0.33014
       12.43000      0.39461      0.32975
       12.44000      0.40667      0.32950
       12.45000      0.40841      0.32925
       12.46000      0.39964      0.32892
       12.47000      0.38105      0.32852
       12.48000      0.35414      0.32803
       12.49000      0.32114      0.32747
       12.50000      0.28476      0.32682
       12.51000      0.24795      0.32610
       12.52000      0.21357      0.32529
       12.53000      0.18411      0.32440
       12.54000      0.16142      0.32343
       12.55000      0.14651      0.32238
       12.56000      0.13950      0.32124
       12.57000      0.13958      0.32003
       12.58000      0.14521      0.31873
       12.59000      0.15427      0.31735
       12.60000      0.16439      0.31589
       12.61000      0.17318      0.31435
       12.62000      0.17861      0.31273
       12.63000      0.17914      0.31102
       12.64000      0.17391      0.30923
       12.65000      0.16282      0.30736
       12.66000      0.14643      0.30541
       12.67000      0.12590      0.30337
       12.68000      0.10282      0.30125
       12.69000      0.07897      0.29905
       12.70000      0.05619      0.29676
       12.71000      0.03616      0.29439
       12.72000      0.02028      0.29194
       12.73000      0.00964      0.28940
       12.74000      0.00490      0.28679
       12.75000      0.00641      0.28408
       12.76000      0.01416      0.28130
       12.77000      0.02797      0.27843
       12.78000      0.04749      0.27548
       12.79000      0.07239      0.27244
       12.80000      0.10236      0.26933
       12.81000      0.13725      0.26613
       12.82000      0.17703      0.26284
       12.83000      0.22176      0.25947
       12.84000      0.27147      0.25602
       12.85000      0.32602      0.25250
       12.86000      0.38489      0.24896
       12.87000      0.44703      0.24540
       12.88000      0.51071      0.24183
       12.89000      0.57351      0.23825
       12.90000      0.63240      0.23465
       12.91000      0.68395      0.23104
       12.92000      0.72467      0.22741
       12.93000      0.75139      0.22378
       12.94000      0.76167      0.21981
       12.95000      0.75421      0.21408
       12.96000      0.72899      0.20885
       12.97000      0.68747      0.20429
       12.98000      0.63240      0.20040
       12.99000      0.56762      0.19725
       13.00000      0.49764      0.19548
       13.01000      0.42718      0.19376
       13.02000      0.36073      0.19208
       13.03000      0.30206      0.19043
       13.04000      0.25401      0.18883
       13.05000      0.21821      0.18726
       13.06000      0.19511      0.18573
       13.07000      0.18406      0.18424
       13.08000      0.18353      0.18279
       13.09000      0.19135      0.18137
       13.10000      0.20502      0.18000
       13.11000      0.22198      0.17866
       13.12000      0.23981      0.17736
       13.13000      0.25639      0.17606
       13.14000      0.26999      0.17476
       13.15000      0.27933      0.17346
       13.16000      0.28353      0.17217
       13.17000      0.28211      0.17087
       13.18000      0.27496      0.16958
       13.19000      0.26228      0.16829
       13.20000      0.24457      0.16700
       13.21000      0.22259      0.16572
       13.22000      0.19732      0.16445
       13.23000      0.16989      0.16319
       13.24000      0.14153      0.16194
       13.25000      0.11344      0.16070
       13.26000      0.08675      0.15947
       13.27000      0.06239      0.15825
       13.28000      0.04104      0.15705
       13.29000      0.02312      0.15585
       13.30000      0.00874      0.15466
       13.31000     -0.00222      0.15349
       13.32000     -0.01009      0.15232
       13.33000     -0.01531      0.15117
       13.34000     -0.01837      0.15002
       13.35000     -0.01970      0.14889
       13.36000     -0.01963      0.14777
       13.37000     -0.01837      0.14665
       13.38000     -0.01595      0.14555
       13.39000     -0.01228      0.14446
       13.40000     -0.00715      0.14338
       13.41000     -0.00032      0.14231
       13.42000      0.00845      0.14125
       13.43000      0.01926      0.14020
       13.44000      0.03207      0.13916
       13.45000      0.04660      0.13813
       13.46000      0.06232      0.13712
       13.47000      0.07846      0.13611
       13.48000      0.09407      0.13511
       13.49000      0.10808      0.13413
       13.50000      0.11941      0.13315
       13.51000      0.12712      0.13219
       13.52000      0.13050      0.13123
       13.53000      0.12917      0.13028
       13.54000      0.12315      0.12932
       13.55000      0.11289      0.12833
       13.56000      0.09920      0.12731
       13.57000      0.08325      0.12627
       13.58000      0.06640      0.12520
       13.59000      0.05016      0.12411
       13.60000      0.03599      0.12300
       13.61000      0.02526      0.12186
       13.62000      0.01909      0.12070
       13.63000      0.01832      0.11951
       13.64000      0.02342      0.11830
       13.65000      0.03449      0.11706
       13.66000      0.05126      0.11580
       13.67000      0.07308      0.11451
       13.68000      0.09903      0.11320
       13.69000      0.12797      0.11187
       13.70000      0.15863      0.11051
       13.71000      0.18974      0.10912
       13.72000      0.22011      0.10772
       13.73000      0.24873      0.10628
       13.74000      0.27484      0.10463
       13.75000      0.29790      0.10272
       13.76000      0.31765      0.10081
       13.77000      0.33398      0.09892
       13.78000      0.34693      0.09704
       13.79000      0.35657      0.09518
       13.80000      0.36292      0.09333
       13.81000      0.36594      0.09149
       13.82000      0.36546      0.09065
       13.83000      0.36125      0.08951
       13.84000      0.35303      0.08805
       13.85000      0.34056      0.08627
       13.86000      0.32372      0.08415
       13.87000      0.30259      0.08171
       13.88000      0.27750      0.07896
       13.89000      0.24907      0.07613
       13.90000      0.21817      0.07336
       13.91000      0.18585      0.07064
       13.92000      0.15332      0.06798
       13.93000      0.12177      0.06536
       13.94000      0.09232      0.06279
       13.95000      0.06589      0.06028
       13.96000      0.04312      0.05782
       13.97000      0.02439      0.05541
       13.98000      0.00976      0.05305
       13.99000     -0.00097      0.05074
       14.00000     -0.00820      0.04848
       14.01000     -0.01249      0.04628
       14.02000     -0.01444      0.04412
       14.03000     -0.01467      0.04202
       14.04000     -0.01374      0.03997
       14.05000     -0.01213      0.03797
       14.06000     -0.01021      0.03602
       14.07000     -0.00825      0.03412
       14.08000     -0.00644      0.03227
       14.09000     -0.00486      0.03048
       14.10000     -0.00357      0.02874
       14.11000     -0.00254      0.02704
       14.12000     -0.00177      0.02540
       14.13000     -0.00122      0.02381
       14.14000     -0.00083      0.02227
       14.15000     -0.00059      0.02079
       14.16000     -0.00046      0.01935
       14.17000     -0.00042      0.01797
       14.18000     -0.00046      0.01664
       14.19000     -0.00058      0.01535
       14.20000     -0.00078      0.01412
       14.21000     -0.00105      0.01295
       14.22000     -0.00142      0.01182
       14.23000     -0.00185      0.01074
       14.24000     -0.00235      0.00972
       14.25000     -0.00286      0.00874
       14.26000     -0.00332      0.00782
       14.27000     -0.00364      0.00695
       14.28000     -0.00368      0.00613
       14.29000     -0.00329      0.00536
       14.30000     -0.00229      0.00465
       14.31000     -0.00049      0.00398
       14.32000      0.00229      0.00337
       14.33000      0.00616      0.00281
       14.34000      0.01119      0.00229
       14.35000      0.01734      0.00184
       14.36000      0.02445      0.00143
       14.37000      0.03224      0.00107
       14.38000      0.04031      0.00076
       14.39000      0.04818      0.00051
       14.40000      0.05531      0.00031
       14.41000      0.06119      0.00015
       14.42000      0.06535      0.00005
       14.43000      0.06747      0.00001
